acc_x, acc_y, angular_z, stamp, 
-0.021370410919189453,0.007958531379699707,-3.4111538189735737e-10,1738277219954611955
-0.0049964189529418945,0.00047326087951660156,-9.417936039624364e-11,1738277219986647227
-0.01202535629272461,0.014766395092010498,1.8644344051172114e-06,1738277220018615717
-0.01205521821975708,-0.00877302885055542,5.920566250389753e-13,1738277220046011396
-0.026277601718902588,0.012816965579986572,4.658831142377838e-11,1738277220075750557
0.027728617191314697,0.017818868160247803,1.0329543516578867e-10,1738277220105035098
0.0025977492332458496,0.0067694783210754395,2.601613253691118e-10,1738277220135053486
0.004436910152435303,0.015496253967285156,4.2693100700532054e-10,1738277220165889276
-0.00815516710281372,-0.013690650463104248,6.311741375648081e-10,1738277220194864388
-0.023987412452697754,-0.044063687324523926,6.412498093739784e-10,1738277220226922623
-0.007577836513519287,0.0006928443908691406,6.444364809159384e-10,1738277220258702522
0.021322190761566162,0.02951902151107788,7.119945717872779e-10,1738277220286084817
0.010628223419189453,-0.01169353723526001,6.671686775172779e-10,1738277220316078788
-0.05750441551208496,0.004552364349365234,5.357753727245834e-10,1738277220346142714
-0.010377705097198486,-0.0006666183471679688,4.285313193673782e-10,1738277220376480207
0.02936732769012451,-0.004082441329956055,3.339566134834051e-10,1738277220406342453
-0.0030768513679504395,0.004996061325073242,1.9963604074210136e-06,1738277220436202180
-0.024698197841644287,-0.03247237205505371,6.502860769110678e-11,1738277220466271563
-0.04955059289932251,-0.008799910545349121,-6.648449899314737e-11,1738277220498821366
0.011771202087402344,0.0020405054092407227,-2.4453149737376917e-10,1738277220529252034
0.026088058948516846,-0.006741702556610107,-4.4464162449822663e-10,1738277220566378453
-0.015481114387512207,-0.0066762566566467285,-3.606853480099302e-10,1738277220596436740
-0.01180034875869751,0.013416469097137451,-4.5357502959752476e-10,1738277220626917148
0.013422667980194092,0.015300154685974121,-5.25344550201499e-10,1738277220658440133
0.011486351490020752,0.02247142791748047,-5.104001231048952e-10,1738277220688965848
-0.021146714687347412,0.015188276767730713,-4.078493751115147e-10,1738277220726643938
-0.006754040718078613,-0.029715299606323242,-3.033964338438147e-10,1738277220756600323
0.025811314582824707,0.020807385444641113,-4.2202886408328525e-10,1738277220786784268
0.007804811000823975,0.002740323543548584,-4.168961966706045e-10,1738277220818824647
0.004144728183746338,-0.010291337966918945,-2.332546917724984e-10,1738277220849247541
-0.026401400566101074,0.011305689811706543,-9.239561624225323e-11,1738277220877037637
-0.022590994834899902,0.007628917694091797,-8.081102452027366e-11,1738277220905851539
0.0206337571144104,0.016424238681793213,-9.318078019422107e-12,1738277220936961906
0.020599961280822754,-0.001768350601196289,4.636602206357853e-11,1738277220966992482
0.009655177593231201,-0.012819051742553711,1.466584463833279e-10,1738277220997017506
-0.015518546104431152,-0.021692752838134766,1.278362588635412e-10,1738277221027010625
0.0331805944442749,-0.019530892372131348,5.894602774989532e-11,1738277221058719387
0.016834378242492676,-0.012131094932556152,-6.384197640144979e-11,1738277221090371214
0.012779474258422852,-0.0048452019691467285,-8.334475756126767e-11,1738277221117241908
-0.023476839065551758,-0.015530586242675781,-3.567822988976129e-11,1738277221147445356
-0.00910806655883789,-0.0011233091354370117,-2.679480892634608e-11,1738277221177216977
-0.014566600322723389,-0.0009698271751403809,-2.5213966070169235e-11,1738277221207254913
0.02641892433166504,-0.007920503616333008,-4.156849817604789e-12,1738277221237334202
-0.016973555088043213,-0.018462657928466797,2.299530172404344e-11,1738277221267453971
-0.011522650718688965,0.01583033800125122,1.8763870705592316e-11,1738277221298369125
0.028038382530212402,-0.009390175342559814,6.535352157947198e-11,1738277221330984343
0.03492629528045654,-0.005987644195556641,7.236396541349708e-11,1738277221357594669
0.021988272666931152,-0.023968815803527832,1.191708035631268e-10,1738277221387503503
-0.006925761699676514,-0.016624093055725098,1.4924535630544925e-10,1738277221417745178
0.003824770450592041,-0.016552746295928955,2.1855205522410555e-10,1738277221447613712
0.012449860572814941,0.023109853267669678,2.8771471801618237e-10,1738277221476635562
-0.0006316304206848145,0.0032997727394104004,3.2541462674364756e-10,1738277221507653004
-0.046062171459198,-0.014677464962005615,4.1599790821249057e-10,1738277221538351561
0.0005035996437072754,0.03387796878814697,4.420052734297993e-10,1738277221570543820
0.027235805988311768,0.01748490333557129,4.2525835781800407e-10,1738277221596863747
0.05553019046783447,-0.022441446781158447,-1.918782489276015e-06,1738277221627923228
0.017300128936767578,-0.015489637851715088,1.494878291359786e-11,1738277221656877839
-0.04220181703567505,-0.0032596588134765625,3.7945857686557364e-11,1738277221688179844
-0.011533737182617188,0.03224366903305054,-4.1088226935252837e-10,1738277221718023638
0.00653606653213501,0.013815224170684814,-8.607109308480833e-10,1738277221747922468
-0.011654138565063477,0.011347651481628418,-1.2421222213676352e-09,1738277221779059844
-0.022605597972869873,0.011004030704498291,-1.115114965774838e-09,1738277221810345015
-0.040431320667266846,0.016111433506011963,-1.6517868970972884e-09,1738277221838155323
0.012029111385345459,0.019561290740966797,-1.31518526850056e-09,1738277221868166647
0.044355928897857666,-0.0005835294723510742,-1.482555693469528e-09,1738277221898315776
-0.0006350874900817871,-0.004300057888031006,-1.1996547765293248e-09,1738277221928454769
0.01733863353729248,-0.006088614463806152,-1.2590217249512427e-09,1738277221958254222
0.008533060550689697,-0.00798642635345459,1.984531212013694e-06,1738277221988272725
0.01394951343536377,-0.01341778039932251,-1.138966982518507e-09,1738277222018622295
-0.014833450317382812,-0.032567381858825684,-0.0005475555923227808,1738277222050299309
0.07882678508758545,-0.03419339656829834,-0.0006598407996397006,1738277222078573591
1.5256658792495728,0.17729640007019043,-0.010255813624346145,1738277222118427150
1.280556321144104,-0.14141052961349487,0.09415445936179202,1738277222148576954
0.9584860801696777,0.33185237646102905,0.1567026657525398,1738277222178551391
1.0006341934204102,0.1372036337852478,0.17978094947671822,1738277222210456685
0.8160318732261658,-0.18829792737960815,0.24162541054688494,1738277222238977249
0.12067544460296631,0.31569546461105347,0.2694895347155827,1738277222268632285
1.1326379776000977,0.06100332736968994,0.289622615944095,1738277222298722479
-0.08488339185714722,0.023638129234313965,0.31081119618154496,1738277222328785966
0.06342333555221558,0.14952367544174194,0.31342107625448173,1738277222358820484
-0.5195738077163696,-0.09674197435379028,0.31106538846549386,1738277222389015546
-0.1857563853263855,0.041071176528930664,0.3227752240679748,1738277222417856544
-0.2980106472969055,0.24008244276046753,0.2868376437007262,1738277222450333429
-0.3374512791633606,-0.04821169376373291,0.29444554416068736,1738277222482139979
-0.09145009517669678,0.21399468183517456,0.32566974771716145,1738277222518967697
-0.040453433990478516,-0.07584381103515625,0.2595141161368872,1738277222549034193
0.004939079284667969,-0.17871546745300293,0.25970421568275254,1738277222579112035
0.06934857368469238,0.17305636405944824,0.26765051257989664,1738277222610746530
0.04905647039413452,0.16810345649719238,0.3003341247289467,1738277222642221554
0.30407965183258057,0.20691430568695068,0.3492094238641118,1738277222679900347
-0.2366592288017273,0.43680286407470703,0.30956320678519045,1738277222710279747
0.1813763976097107,-0.316059947013855,0.2850084961631042,1738277222739330907
0.27338409423828125,0.07015448808670044,0.2757244587012527,1738277222770314392
-0.3321043848991394,0.10617822408676147,0.26110955282776943,1738277222802828766
0.6367355585098267,0.013867080211639404,0.3261394073017983,1738277222829919014
-0.2706221342086792,0.19715923070907593,0.2970601275739184,1738277222860022616
-0.0006438493728637695,-0.3286398649215698,0.3110320862986495,1738277222890003519
-0.061694204807281494,0.13569587469100952,0.30250429994736394,1738277222920006245
-0.09147137403488159,0.37096744775772095,0.2964535543781659,1738277222949988805
-0.08072835206985474,-0.13773244619369507,0.2815651841541996,1738277222979983809
0.11663824319839478,0.19518202543258667,0.2652753530424596,1738277223010343410
-0.01606220006942749,0.04843419790267944,0.26826242286824964,1738277223042755948
-0.24921315908432007,-0.1391642689704895,0.32549982758328133,1738277223067988972
0.23445600271224976,0.2304810881614685,0.2808732701320311,1738277223099706909
-0.6069205403327942,0.05094480514526367,0.30084153658504736,1738277223129775813
0.425520658493042,0.03239208459854126,0.3237022655446922,1738277223159990114
-0.323297917842865,0.3001958131790161,0.31713563705164627,1738277223189952472
0.011758685111999512,-0.16854506731033325,0.30842105633614525,1738277223219910648
0.1739254593849182,-0.1008102297782898,0.2821431166947421,1738277223251034422
-0.35786956548690796,-0.06329149007797241,0.27468019306126007,1738277223282577717
0.4125477075576782,0.1638416051864624,0.3532734199852414,1738277223310190298
-0.6414130926132202,0.15736156702041626,0.33215131236577056,1738277223340274405
0.6218652129173279,-0.0865638256072998,0.32553935927906025,1738277223370316981
-0.5171677470207214,0.20110809803009033,0.30105503870510314,1738277223400177461
0.6231423616409302,-0.36066198348999023,0.3032649377428287,1738277223430232977
-0.40200138092041016,0.033133625984191895,0.28169982153586126,1738277223460643872
0.4778403043746948,-0.06700795888900757,0.2661623934149095,1738277223490453110
-0.49317193031311035,-0.1874290108680725,0.25116008464889666,1738277223522598501
0.22516965866088867,0.013665735721588135,0.30008178162261084,1738277223550695034
-0.07985764741897583,0.16113358736038208,0.3381289428868565,1738277223580381153
-0.05723297595977783,0.21418195962905884,0.3027561304555649,1738277223602672788
0.8323181867599487,0.28797662258148193,0.34342396594154534,1738277223630524926
-0.27459579706192017,-0.1228705644607544,0.2830324656112452,1738277223660525137
0.4120814800262451,-0.2036341428756714,0.2768053508825066,1738277223690593338
-0.14494472742080688,0.22114485502243042,0.29841644964020636,1738277223720587918
-0.1769561767578125,-0.09631502628326416,0.2882304847201986,1738277223750673632
-0.036431849002838135,0.10554122924804688,0.2898669685519936,1738277223780714431
-1.6354408264160156,0.4882323741912842,0.31892531607959,1738277223809783797
-1.2287817001342773,-0.07764410972595215,0.24502173028362978,1738277223842635488
-0.8719072341918945,-0.47253936529159546,0.20471849078986928,1738277223873643463
-0.9839245080947876,-0.14698004722595215,0.1671493217381759,1738277223901212871
-0.6208065748214722,0.11389780044555664,0.11008116018370372,1738277223929941469
-0.8327172994613647,0.062107861042022705,0.0639733295543347,1738277223960996112
-0.16165709495544434,-0.17963558435440063,0.0800596143899598,1738277223990988403
-0.07956016063690186,-0.07066690921783447,0.03153155406468244,1738277224021145478
0.23308151960372925,0.041794002056121826,-0.03324418599897026,1738277224051088386
0.04336303472518921,-0.11913782358169556,0.0019348150081782804,1738277224083111117
-0.19515877962112427,0.14054089784622192,0.0054099183388363606,1738277224114513532
0.11700493097305298,-0.06410187482833862,-0.004601202018992259,1738277224151165746
0.06661832332611084,-0.037223637104034424,0.0031353820111136434,1738277224181154529
-0.05067121982574463,0.01813983917236328,0.002600125179566371,1738277224211277393
-0.04574710130691528,-0.040568411350250244,-0.0050613806691776776,1738277224242572836
-0.015495598316192627,0.027717649936676025,0.003398242870008893,1738277224274960061
-0.02986234426498413,0.059205710887908936,0.004971373056131179,1738277224301463061
0.2779136896133423,-0.02878504991531372,-0.00493946878951484,1738277224331382848
1.876680850982666,0.1105114221572876,-0.027600362145338134,1738277224361511687
0.834395706653595,-0.19099736213684082,0.04562395833785011,1738277224391536268
0.9567727446556091,0.17755812406539917,0.12184362799678322,1738277224421783286
1.2806422710418701,0.20804768800735474,0.16061978041970595,1738277224451555295
-0.06721431016921997,0.08768129348754883,0.1821873749813801,1738277224481883138
0.7978936433792114,0.047267138957977295,0.2146962086033172,1738277224514574118
0.38214200735092163,0.11372172832489014,0.33139925712890717,1738277224541762031
0.5929035544395447,-0.11660432815551758,0.3691153610224479,1738277224569845413
0.47570157051086426,0.13577187061309814,0.2894563116068722,1738277224595374921
-0.5119619965553284,-0.16425400972366333,0.36023950038180236,1738277224631818567
0.17030322551727295,-0.12383663654327393,0.3365681399666416,1738277224660856968
-0.4953063130378723,0.2917479872703552,0.2956365816696876,1738277224691952290
0.4277903437614441,0.22590124607086182,0.2867886791807559,1738277224723294701
-1.0340791940689087,0.116427481174469,0.2667849598317193,1738277224754681713
0.30064475536346436,-0.18944329023361206,0.34162877909949924,1738277224782407811
-0.5425176620483398,0.3980201482772827,0.29815067071041496,1738277224812065600
-0.08305907249450684,-0.23847442865371704,0.2834709237684837,1738277224842137332
-1.3406198024749756,-0.13964086771011353,0.2587014111185619,1738277224872172665
-0.4222138524055481,0.07949352264404297,0.20647233687346256,1738277224902198008
-1.7861061096191406,0.02740609645843506,0.17500475969401244,1738277224932250861
0.2814980149269104,-0.12375301122665405,0.1252656019240203,1738277224962640165
0.08720618486404419,0.09906119108200073,0.09134660333787915,1738277224994712605
2.2672903537750244,0.5811818242073059,0.13566449365945507,1738277225022460789
1.085665225982666,-0.016151845455169678,0.2339129884495723,1738277225052414740
1.1237432956695557,0.018173635005950928,0.28803560400484063,1738277225082367807
0.1143568754196167,0.008447885513305664,0.2548084260453092,1738277225105044537
0.9368631839752197,-0.01036059856414795,0.33442604717103896,1738277225142555088
-1.4164668321609497,-0.18041151762008667,0.31425251756447603,1738277225172521335
0.5832598209381104,0.20692157745361328,0.28367635337714997,1738277225202681840
-1.1633861064910889,0.38742196559906006,0.2421616184774463,1738277225235236273
0.4112389087677002,-0.08397656679153442,0.3327133516919706,1738277225272618618
-0.5420167446136475,-0.13227486610412598,0.27482605408511374,1738277225302812995
0.26933079957962036,-0.06467169523239136,0.2816951318407929,1738277225332966554
-0.38218653202056885,0.29798996448516846,0.2780499976132776,1738277225363165676
0.5960275530815125,0.12245422601699829,0.28314360672838634,1738277225394647287
-0.10848462581634521,-0.14582568407058716,0.281101854175579,1738277225426029659
0.1840326189994812,-0.5771600604057312,0.2944047100948406,1738277225463117184
-0.03365844488143921,0.3348638415336609,0.28544518111689654,1738277225493052870
-0.042210161685943604,0.21226894855499268,0.3045639936656699,1738277225523003840
0.1674463152885437,-0.41050589084625244,0.31052613937315793,1738277225555070398
-0.2381213903427124,0.33733803033828735,0.29517783164844646,1738277225586508221
-0.18899399042129517,0.15765351057052612,0.32324366079605976,1738277225623253681
-0.11437702178955078,0.0842629075050354,0.2897525641993399,1738277225653431846
0.09448695182800293,0.29465341567993164,0.30593272201008215,1738277225683259298
-0.206121027469635,0.25535911321640015,0.28173375010679613,1738277225714889498
0.06949871778488159,-0.2959672212600708,0.28901054578785496,1738277225745870508
0.05623066425323486,0.16600960493087769,0.3152969260255498,1738277225783512151
-0.09218257665634155,-0.04079127311706543,0.3289448192632501,1738277225813669185
-0.2676369547843933,0.23378610610961914,0.32361397393761043,1738277225843704952
0.1551746129989624,0.03349030017852783,0.31126211138792437,1738277225875030534
-0.19633686542510986,0.10313045978546143,0.3046881833881865,1738277225906684286
0.3215372562408447,-0.13720548152923584,0.33268232062664954,1738277225943704632
-0.7117810249328613,0.0036542415618896484,0.31168375961947997,1738277225973810792
0.717065155506134,0.13535600900650024,0.32744350577525,1738277226002895283
-0.0281069278717041,-0.00804746150970459,0.30031311689964,1738277226034650718
-0.030050218105316162,-0.2077581286430359,0.2640378266395264,1738277226066897823
-0.19088810682296753,0.07619881629943848,0.32311714730219127,1738277226102803496
0.05037027597427368,-0.09377282857894897,0.2611289896316979,1738277226133981399
0.041663289070129395,0.10929083824157715,0.2774226637178578,1738277226164189689
-0.4082114100456238,0.2622945308685303,0.26920324258714706,1738277226195008432
0.4206398129463196,-0.09623241424560547,0.3112586201870576,1738277226226713745
0.3021496534347534,0.16767358779907227,0.3176879925619482,1738277226264152167
0.061473727226257324,0.11711537837982178,0.26544263764236087,1738277226294275683
-0.44439566135406494,-0.26096636056900024,0.26740858606982315,1738277226324119897
0.4453015923500061,0.17593377828598022,0.2991727643444613,1738277226354597921
-0.556374728679657,0.3640996217727661,0.2816695750813144,1738277226387186100
0.7660084366798401,-0.3853603005409241,0.3472592254194487,1738277226414288578
-0.2969992160797119,0.5654247403144836,0.33667917908597117,1738277226444388467
0.05915510654449463,-0.4217289090156555,0.30815946097994285,1738277226474312150
0.10255098342895508,-0.1881721019744873,0.29191240333183816,1738277226504504262
0.017694294452667236,0.33029353618621826,0.2862795426564489,1738277226535092958
-0.06885004043579102,-0.02913719415664673,0.29971613255375634,1738277226565231038
0.05122452974319458,0.036839962005615234,0.28049663122666996,1738277226595560063
-0.1570112705230713,0.2148839831352234,0.27689043076753056,1738277226626522355
-0.2525479793548584,0.046726226806640625,0.275050371386956,1738277226656923439
0.3649594783782959,-0.07479101419448853,0.3380233760536691,1738277226685192858
0.26645350456237793,0.14276283979415894,0.3204931644475696,1738277226725214235
-0.07908082008361816,-0.04178786277770996,0.2854707976054706,1738277226755182136
-0.06699258089065552,0.19649779796600342,0.2589478237018791,1738277226786896639
-0.05706620216369629,0.16050028800964355,0.27674521586853285,1738277226817261709
-0.06744438409805298,0.09244710206985474,0.30489576940099095,1738277226855242490
-0.02678382396697998,0.19468975067138672,0.3265959497830478,1738277226885256503
0.26941025257110596,-0.1383628249168396,0.3486718014015742,1738277226915254687
-0.022395074367523193,0.030803263187408447,0.3175949345989869,1738277226946795341
0.25964927673339844,0.028094947338104248,0.2841824663713275,1738277226978188426
-0.10713446140289307,0.1253511905670166,0.3261892914037261,1738277227005306132
0.18577611446380615,0.07596087455749512,0.28748416041551594,1738277227035296896
-0.3243858814239502,-0.1731310486793518,0.24119289083731157,1738277227058526955
-0.1429126262664795,-0.22366416454315186,0.32248066091559147,1738277227095356029
-0.10816693305969238,0.07118171453475952,0.31193186564553754,1738277227125440742
0.023634493350982666,0.38743293285369873,0.31287118403204645,1738277227155424542
0.30749088525772095,-0.231312096118927,0.30718625032638236,1738277227186545433
0.12849730253219604,0.2167235016822815,0.2523723414085887,1738277227218946209
-0.35743004083633423,-0.08905196189880371,0.3239937507099718,1738277227245562217
0.06841975450515747,0.11812067031860352,0.2818881487933843,1738277227275637896
0.13385480642318726,0.28628993034362793,0.2904220565874929,1738277227305508607
-0.5030438303947449,-0.14975416660308838,0.2910519264347132,1738277227335480161
0.4191175699234009,-0.15179812908172607,0.3126312014291265,1738277227365594867
0.24562710523605347,0.7738057374954224,0.30814206427509766,1738277227395900068
-0.1420857310295105,-0.08412402868270874,0.28592415121114667,1738277227426589154
0.19101160764694214,-0.282667338848114,0.2642108058239418,1738277227458727771
0.04051774740219116,0.23760956525802612,0.3207788576459158,1738277227485682345
0.04209482669830322,0.04718500375747681,0.288647366063409,1738277227515653050
-0.09056276082992554,-0.042329490184783936,0.2651486030762986,1738277227545736438
-0.10019057989120483,-0.002355039119720459,0.3093645155249409,1738277227575738378
-0.1174314022064209,0.1928209662437439,0.31255212677354677,1738277227606054490
0.172937273979187,-0.10271871089935303,0.3193732554550842,1738277227635840056
-0.2496776580810547,0.08216547966003418,0.29528914952676794,1738277227666207050
0.3823407292366028,0.10666900873184204,0.27259701422610993,1738277227698499275
-0.43057364225387573,0.14209026098251343,0.3336825958861037,1738277227726129451
0.3084472417831421,-0.08888518810272217,0.29945317679446004,1738277227756030423
-0.22141361236572266,-0.1688583493232727,0.30860834685316163,1738277227786309273
-0.15278595685958862,0.07926136255264282,0.29347223695524693,1738277227816291021
-0.2888699769973755,0.2727198600769043,0.3060350192944597,1738277227846355351
-0.04737579822540283,-0.07195180654525757,0.2990162141009565,1738277227876204524
-0.05033379793167114,0.09955626726150513,0.29537950789991557,1738277227906575285
-0.03914284706115723,0.3300367593765259,0.2727055054117571,1738277227938549580
-0.007898926734924316,-0.19202077388763428,0.32310662057842165,1738277227966594097
-0.37394392490386963,0.07952773571014404,0.29560561381191947,1738277228006594836
0.2934049963951111,0.012386918067932129,0.30318415149150213,1738277228036661844
-0.4332871437072754,0.08382081985473633,0.3009936982979986,1738277228066827562
0.312309205532074,-0.04312103986740112,0.2683363052082196,1738277228098788748
-0.07364565134048462,-0.024783074855804443,0.2825825868438255,1738277228129277102
0.4400806427001953,-0.012116312980651855,0.2824259593167667,1738277228166685643
-0.6366990208625793,-0.10698467493057251,0.27432719505363834,1738277228196636296
0.2383926510810852,-0.07176053524017334,0.28737329421766095,1738277228225875740
0.10838562250137329,0.19631344079971313,0.29453861473866816,1738277228258794344
-0.0010069608688354492,0.1228594183921814,0.32379101144905964,1738277228289238197
-0.16918587684631348,-0.26156407594680786,0.32172045755187095,1738277228326771940
-0.01962912082672119,0.4365532398223877,0.30543518832805006,1738277228355878217
0.21223509311676025,0.19176030158996582,0.2674552246289912,1738277228386985803
-0.14746689796447754,-0.2989060878753662,0.27204526272882473,1738277228418618019
0.08612996339797974,0.2795417904853821,0.30092993419291336,1738277228449739776
-0.2316609025001526,-0.0338858962059021,0.36980068527050797,1738277228477155706
0.32146185636520386,-0.012547135353088379,0.33606339969723803,1738277228507016076
-0.05030548572540283,0.008227646350860596,0.3233850481579826,1738277228537069543
0.07264798879623413,0.030878543853759766,0.29650585790614337,1738277228567376100
0.09997016191482544,-0.0038169026374816895,0.3112528550917415,1738277228597334140
-0.24934285879135132,0.3259841799736023,0.30993199721607634,1738277228627215982
0.6643922328948975,0.10887718200683594,0.2989258727762789,1738277228657879948
-0.42800772190093994,-0.1898975968360901,0.2742618420083697,1738277228691079935
0.08817040920257568,-0.07402682304382324,0.3458719516169573,1738277228727498045
-0.23409420251846313,0.22997123003005981,0.29545963670105796,1738277228757591133
0.23180174827575684,-0.11940795183181763,0.2909265495218167,1738277228787492634
-0.17680710554122925,-0.14049631357192993,0.2684185125877786,1738277228819175278
-0.17522472143173218,0.17616719007492065,0.27382543691476313,1738277228851069977
0.06896728277206421,0.17108780145645142,0.303772452572547,1738277228877803091
-0.10232287645339966,-0.027589082717895508,0.25822834002830325,1738277228907624682
-0.051115334033966064,-0.10813111066818237,0.2975456701467,1738277228937772034
-0.286199152469635,0.13148730993270874,0.2864903094285198,1738277228967674140
-0.482913613319397,0.14481335878372192,0.28494435948784075,1738277228997691148
-1.0776982307434082,-0.06877005100250244,0.2612653369620769,1738277229026883005
-1.3799500465393066,0.02749311923980713,0.17593544694070037,1738277229058711423
-0.42424196004867554,-0.2361096739768982,0.16614373836259483,1738277229089972910
-0.7528200745582581,-0.014970600605010986,0.11126862567227465,1738277229128100896
-0.6343824863433838,-0.1500595211982727,0.04885050044201071,1738277229158149406
-0.7118330597877502,-0.16268861293792725,0.003446815642802383,1738277229186976314
-0.03987675905227661,-0.11890721321105957,-0.013332082317925553,1738277229218682290
0.1969444751739502,0.1060534119606018,-0.008638602547527886,1738277229250656015
0.0121612548828125,0.14932483434677124,-0.023592695918020927,1738277229278287286
1.2170324325561523,-0.034937143325805664,0.017325543677730523,1738277229318154597
1.371968388557434,0.40040284395217896,0.07141250550386918,1738277229348209305
0.5888332724571228,0.15587884187698364,0.1518055438689487,1738277229378730076
1.2418560981750488,-0.010458290576934814,0.18356310899826606,1738277229411066384
0.23720908164978027,-0.18087667226791382,0.2409891297279683,1738277229438450408
0.9573522210121155,0.417349636554718,0.23994740037741283,1738277229468386510
0.7499101161956787,0.1368560791015625,0.30124953811535926,1738277229498522374
-0.055799007415771484,-0.13772284984588623,0.2993595267406638,1738277229528390340
-0.06256991624832153,0.26744091510772705,0.2996260610622684,1738277229558617599
-0.7636853456497192,-0.0900876522064209,0.2895356430373895,1738277229588457972
-0.5960827469825745,0.20738041400909424,0.2763397729099516,1738277229658599621
0.3843897581100464,0.2643488049507141,0.3438485624351283,1738277229687854136
-0.12353992462158203,0.45297670364379883,0.3191539322952972,1738277229718917839
1.0463600158691406,-0.08515477180480957,0.3281464802784047,1738277229748994565
-0.2229142189025879,-0.29096871614456177,0.29329323658268286,1738277229779446737
0.2155802845954895,0.08840149641036987,0.26459689594470315,1738277229810681065
-0.16641765832901,0.12148964405059814,0.3248317005195309,1738277229837878148
-0.07427090406417847,0.056747615337371826,0.2791646386348487,1738277229869167401
-0.148112952709198,0.09770506620407104,0.32379039540007326,1738277229898900155
-0.20939773321151733,0.288016676902771,0.3194662444057055,1738277229928970526
0.1645393967628479,0.290091335773468,0.33338612512870475,1738277229957993290
-0.16673702001571655,-0.17787861824035645,0.30042817531221805,1738277229989083905
-0.06647926568984985,-0.11397796869277954,0.2937709932750131,1738277230019069569
-0.10066252946853638,-0.022366821765899658,0.27391421384584425,1738277230050733468
0.026678502559661865,0.19185608625411987,0.28750543889484426,1738277230081703543
-0.08597379922866821,0.11568677425384521,0.32972440149661475,1738277230109197995
-0.21435201168060303,0.33345091342926025,0.2943108434092877,1738277230139415372
0.11298775672912598,-0.08887755870819092,0.31172811165209047,1738277230169291170
-0.9038292169570923,0.06300520896911621,0.2988733933863764,1738277230199510878
-1.1052179336547852,-0.09020942449569702,0.25044962408547067,1738277230229370982
-1.1389707326889038,-0.02093905210494995,0.19655494299553586,1738277230259442146
0.06676042079925537,-0.14373278617858887,0.15593213659209856,1738277230291077381
2.1516218185424805,0.4366123080253601,0.1507427626812541,1738277230322750254
0.7775492072105408,0.033251941204071045,0.2825190512039567,1738277230349550829
0.4574650526046753,0.04986262321472168,0.29870667148391966,1738277230370727035
0.32673972845077515,-0.10591882467269897,0.3195419465862666,1738277230402954208
0.9408856630325317,0.053872644901275635,0.37261545184401534,1738277230429651792
-0.7218332886695862,0.40918606519699097,0.3180298841921678,1738277230459823603
0.5017902851104736,0.5295818448066711,0.3047168037587981,1738277230490440677
-1.2256426811218262,-0.45420384407043457,0.28191393832625344,1738277230520683689
0.49920064210891724,-0.2890511751174927,0.28744835260894264,1738277230550392693
-1.2791612148284912,0.2623750567436218,0.2647728802208471,1738277230580302054
0.8595679998397827,-0.05305725336074829,0.2739752140783464,1738277230611139571
-0.20943611860275269,0.4187362790107727,0.2968955433084452,1738277230643226148
0.40648365020751953,-0.20344245433807373,0.315608580925886,1738277230670425242
-0.12886899709701538,-0.15936589241027832,0.27886562886846883,1738277230700468148
-0.12293475866317749,0.06375747919082642,0.2783984590170039,1738277230730546675
0.07664424180984497,0.023080408573150635,0.285859710647733,1738277230760425440
-0.5115124583244324,0.28379374742507935,0.27382728343395485,1738277230790521909
0.4675213694572449,0.1385364532470703,0.30272646254822866,1738277230820506487
-0.397264301776886,-0.04082632064819336,0.3115913409487937,1738277230850734247
0.5016178488731384,-0.0035322904586791992,0.30180864083897657,1738277230883045824
-0.35873037576675415,0.15560728311538696,0.3347869799586643,1738277230910351617
0.4471864104270935,0.0714922547340393,0.3026564773261814,1738277230940302390
-0.1325858235359192,0.025210201740264893,0.2985587543260548,1738277230970762402
0.24392080307006836,0.09918314218521118,0.2967414430362251,1738277231000588159
-0.2477189302444458,-0.11701911687850952,0.32081857026803084,1738277231030720843
0.2057841420173645,0.07707208395004272,0.31696494626285787,1738277231060517291
-0.16223788261413574,0.13623136281967163,0.3133437900618498,1738277231091110496
0.09185951948165894,0.07276672124862671,0.26640395962461433,1738277231123495614
0.04349350929260254,0.0941120982170105,0.30668681295259187,1738277231150807630
-0.35718828439712524,-0.09987705945968628,0.2785100282142558,1738277231180747944
-0.03233230113983154,-0.09436708688735962,0.2837626237475967,1738277231210714556
-0.1529800295829773,0.013977229595184326,0.29386048997839903,1738277231240803939
-1.6722321510314941,-0.024529099464416504,0.2863109157895496,1738277231269947252
-1.1758078336715698,0.09919530153274536,0.22458354660246105,1738277231299913420
-0.6712270379066467,-0.25769752264022827,0.18380927011354234,1738277231330075628
-1.0963444709777832,0.09443473815917969,0.11831217181469476,1738277231362957855
-0.5849669575691223,-0.03554326295852661,0.08335282841507119,1738277231393567906
-0.320642352104187,-0.2068966031074524,0.04557831799816235,1738277231421051523
-0.3778536915779114,0.09051156044006348,0.018135197331501995,1738277231451065127
0.29985302686691284,-0.018672645092010498,0.009874226457082353,1738277231481076436
2.096984386444092,0.07446873188018799,-0.01752375978911999,1738277231511428530
1.110089659690857,-0.21286088228225708,0.04200694299120704,1738277231541160609
0.9057425856590271,0.1027558445930481,0.12257031912018325,1738277231571274079
1.097031831741333,0.46705305576324463,0.1695043728591601,1738277231602976792
0.7716230154037476,0.09676915407180786,0.20674903714514037,1738277231634400244
0.09150969982147217,-0.2512485384941101,0.2944350972927322,1738277231661436602
0.6016845107078552,0.3550536632537842,0.3074966350139798,1738277231691328504
-0.02583414316177368,0.07545071840286255,0.32876014021534816,1738277231721343194
-0.16856151819229126,-0.11201339960098267,0.3146974367344172,1738277231751386955
-0.20090043544769287,0.19961649179458618,0.3118205768921523,1738277231781432282
-0.35440731048583984,-0.360027551651001,0.3077005733634986,1738277231811696553
0.03459596633911133,0.14789360761642456,0.281744017273497,1738277231842831898
-0.22933417558670044,0.22972023487091064,0.2838182706334052,1738277231875211942
0.06369161605834961,0.11295157670974731,0.3274961326397973,1738277231901786435
0.13982194662094116,0.052982866764068604,0.29185604019371153,1738277231931729580
-0.2576627731323242,0.0571330189704895,0.23914391499639026,1738277231955266297
-0.008280336856842041,-0.12866681814193726,0.33127915361788846,1738277231990878400
-2.228339433670044,0.050359904766082764,0.2569941260988975,1738277232022342102
-0.18265777826309204,-0.014138102531433105,0.25500415560134587,1738277232052095823
-0.4104886054992676,-0.19779598712921143,0.17355401369967774,1738277232083246917
2.208738327026367,0.12184613943099976,0.1618960243779652,1738277232115296996
1.1947054862976074,0.30414271354675293,0.23457234010501585,1738277232142052322
0.5485842227935791,0.0680774450302124,0.30659733785302623,1738277232172019338
0.0838438868522644,-0.13642549514770508,0.32441012280696324,1738277232202091707
0.6809871792793274,-0.01589798927307129,0.3377917498081953,1738277232232042984
-0.3954683542251587,0.3022558093070984,0.3234883835390137,1738277232262218562
-0.6134953498840332,-0.2759985327720642,0.3216491343411535,1738277232291270629
-0.15415352582931519,0.19757306575775146,0.23804521773480278,1738277232323426743
-0.15710526704788208,0.2719181776046753,0.2547603738592049,1738277232354999402
-0.2112070918083191,-0.12865859270095825,0.28671195466666377,1738277232382393888
-0.3138899803161621,-0.04597675800323486,0.2733056502516671,1738277232412342013
0.24214357137680054,0.17080211639404297,0.30766057173176475,1738277232442369270
0.06121605634689331,-0.002492964267730713,0.31233762613652793,1738277232472499302
0.8546605706214905,-0.02395719289779663,0.2983330940617022,1738277232502460659
-0.2923768162727356,0.20435374975204468,0.2575508576089973,1738277232532478834
-0.05964285135269165,-0.13407421112060547,0.25452642777023504,1738277232563123090
-0.3140314817428589,-0.008556902408599854,0.24848552747060318,1738277232595364878
-0.02488267421722412,0.13746869564056396,0.32647361891299553,1738277232622633060
-0.4982057809829712,0.07366293668746948,0.31506933079202337,1738277232652764547
0.6681448221206665,-0.07283401489257812,0.3359942299721699,1738277232682694046
-0.23603922128677368,0.44940119981765747,0.30494244936204296,1738277232712758781
0.1768559217453003,-0.25047194957733154,0.29745966363896853,1738277232742990164
-0.11266690492630005,0.22774022817611694,0.296527602567912,1738277232771881451
0.21922558546066284,0.4967859983444214,0.2932403401813687,1738277232803092650
-0.3584100604057312,0.23381054401397705,0.3019404061637111,1738277232835166972
0.6056575179100037,-0.2915375828742981,0.32936685026219686,1738277232865443055
-0.010542154312133789,0.11970072984695435,0.37263748945180153,1738277232892929450
0.14392763376235962,0.0662839412689209,0.3003165714794918,1738277232932977057
-0.2102949619293213,0.2511482238769531,0.28717267823078535,1738277232963029629
-0.0774422287940979,-0.2318187952041626,0.25877670102356165,1738277232995690547
-0.2299385666847229,0.04561948776245117,0.29371447699249653,1738277233025619994
0.2649056315422058,-0.059756338596343994,0.3330573226153652,1738277233063272570
-0.3252638578414917,0.3029397130012512,0.3077293942075963,1738277233093197909
0.39749205112457275,-0.0024512410163879395,0.3046171928338198,1738277233123289374
-0.31536000967025757,0.08315408229827881,0.2541092144943031,1738277233155313988
0.18177276849746704,0.10082191228866577,0.2744909699415825,1738277233186350528
-0.45391589403152466,0.29398322105407715,0.3185005200681605,1738277233213554685
0.8231116533279419,0.15679627656936646,0.2922289712531992,1738277233243656470
-0.4752512574195862,0.02945733070373535,0.30222152611563946,1738277233273477304
0.48038625717163086,-0.15636521577835083,0.32542219017184465,1738277233303674401
-0.7246944308280945,0.2693396806716919,0.32438896598122424,1738277233332869638
0.9357631206512451,-0.1497005820274353,0.30059968603585985,1738277233363703595
-0.5518736839294434,0.35989701747894287,0.267570369365266,1738277233393841910
0.5107003450393677,0.556324303150177,0.23888215357928785,1738277233427514056
-0.7508589029312134,0.00720447301864624,0.3163504711464354,1738277233463773244
0.12123268842697144,-0.21391624212265015,0.309202725218918,1738277233493947462
-0.12346827983856201,0.3277609944343567,0.31155245043837076,1738277233523011699
0.34641003608703613,0.6011073589324951,0.2598852090925594,1738277233555613005
-0.2512528896331787,0.19769513607025146,0.2511044737471291,1738277233586790266
-0.5158631205558777,-0.5349834561347961,0.30431262801319714,1738277233614038128
0.5393946170806885,0.47821491956710815,0.30964280414765954,1738277233644221594
-0.1331586241722107,-0.04521554708480835,0.26629895487306116,1738277233667326523
0.2761448621749878,-0.6700626015663147,0.3330241487975976,1738277233704422058
-0.3246701955795288,-0.31679391860961914,0.3093106451393909,1738277233734111639
0.7770410776138306,0.9207461476325989,0.2986760953351197,1738277233763470595
-0.5036600828170776,0.1676233410835266,0.27902502285969494,1738277233795223537
0.4228806495666504,-0.5855125784873962,0.30181041511554385,1738277233827161729
-0.5623218417167664,-0.10187923908233643,0.3389257023502408,1738277233854353489
0.4254906177520752,0.5769683718681335,0.29516192374293987,1738277233884444519
-0.27716314792633057,-0.0509907603263855,0.2666728330663197,1738277233914400165
0.532029390335083,-0.0767013430595398,0.2868231369899682,1738277233944423560
-0.19073766469955444,-0.0776510238647461,0.30307473430736925,1738277233974511373
-0.0920865535736084,0.1193777322769165,0.2964280463521078,1738277234004532003
-0.09276390075683594,0.025773048400878906,0.290027514430758,1738277234035131576
0.04098856449127197,0.054398953914642334,0.2911231175569272,1738277234067400310
0.27961820363998413,0.47974109649658203,0.3461113890554866,1738277234093844569
-0.024154305458068848,-0.030973494052886963,0.2934056059913336,1738277234124640320
0.0007436275482177734,-0.24982428550720215,0.29774483063151475,1738277234154732136
-0.026436209678649902,0.57794189453125,0.30450473554167756,1738277234184746168
-0.2237512469291687,0.2872985005378723,0.31528651113816203,1738277234215344593
0.1885366439819336,-0.6567333340644836,0.3185900208806988,1738277234245511345
0.29477399587631226,-0.2590376138687134,0.3067834445823851,1738277234275488375
0.20030254125595093,0.7377463579177856,0.26927599295843613,1738277234307040755
-0.5334064364433289,-0.034214138984680176,0.28597448878276865,1738277234337463652
0.20622146129608154,-0.030589163303375244,0.3016614591834234,1738277234365623520
-0.4691374897956848,-1.0604528188705444,0.2881699594635691,1738277234395651711
0.59614497423172,0.5578472018241882,0.3122688593057022,1738277234425551665
0.050821125507354736,1.140795111656189,0.2827236562820178,1738277234455547905
0.06890225410461426,-0.7617629170417786,0.26225503982470205,1738277234485652619
0.08175778388977051,-0.9624896049499512,0.2764835405384705,1738277234515744348
0.09887564182281494,1.567839503288269,0.28939234787413604,1738277234547267667
0.21325385570526123,0.4233340620994568,0.3393538738214399,1738277234577160884
-0.5207982063293457,-1.3952051401138306,0.34586288960839295,1738277234605598861
0.39961856603622437,0.0068885087966918945,0.30526470855467036,1738277234635574190
-0.08636069297790527,0.7546343207359314,0.28690486520422975,1738277234665644820
-0.22689169645309448,0.9679590463638306,0.2958732342848169,1738277234695785510
-0.331967830657959,-0.9233564734458923,0.320713834764218,1738277234724950850
-0.4674875736236572,-0.22759556770324707,0.31714773508566374,1738277234755765367
0.8381149768829346,0.6375833749771118,0.31265461979595877,1738277234787357879
-0.5217977166175842,0.23810768127441406,0.2661708736278101,1738277234818999436
0.1640908122062683,-0.28261709213256836,0.3140028800482862,1738277234845933545
-0.3225497007369995,-0.5817800760269165,0.2999046724217528,1738277234875796657
0.7426753640174866,0.7760400176048279,0.23645080901353305,1738277234899838410
0.4475870728492737,0.41792601346969604,0.3059426107017046,1738277234936133285
-0.37638193368911743,0.1725941300392151,0.2951806273586883,1738277234965013389
-0.03809863328933716,-0.3881152868270874,0.2759202290786933,1738277234996108969
-0.08345448970794678,-0.5541110634803772,0.2797268817735222,1738277235027339127
0.09176808595657349,0.6098676323890686,0.2839251899918677,1738277235059195422
-0.35317814350128174,0.6254872679710388,0.3444619208173543,1738277235085990942
0.24166125059127808,0.7788935303688049,0.32818394352947833,1738277235116191760
-0.12241029739379883,-0.1412617564201355,0.31659960227246764,1738277235146250025
-0.10648566484451294,-0.7963032722473145,0.2879356308860606,1738277235176024527
-0.30227118730545044,-0.0357549786567688,0.28390357599957583,1738277235206267172
0.43473291397094727,1.4880825281143188,0.29945164573279104,1738277235236151633
-0.2074040174484253,0.40575218200683594,0.311170997437901,1738277235267192350
-0.1126665472984314,-0.9892183542251587,0.29083727148535427,1738277235299026701
0.03792762756347656,-0.6890677809715271,0.3162736621042768,1738277235326290158
0.06813246011734009,1.2232730388641357,0.3158776332466846,1738277235355281806
-0.1185031533241272,0.944805383682251,0.28620268053187486,1738277235386297141
0.051518380641937256,-0.7528461813926697,0.31887690645148825,1738277235416335287
-0.4289572238922119,-0.20731598138809204,0.32310570728399063,1738277235446393110
-0.427459716796875,0.2579118013381958,0.2913966377314467,1738277235476600951
-0.7621181011199951,0.6823387742042542,0.2896942076004128,1738277235507088262
-0.7166909575462341,-0.2442619800567627,0.243331239137634,1738277235539453966
-1.7242642641067505,-0.20430588722229004,0.24290522017044053,1738277235566609169
-0.2611166834831238,-0.2365638017654419,0.19685239581900218,1738277235596734178
-1.2925323247909546,0.2923712134361267,0.16119192250279657,1738277235626675287
-0.6060500144958496,-0.038756489753723145,0.09399934736006288,1738277235656780793
-0.9737638831138611,-0.20631223917007446,0.0666183131543853,1738277235686760535
-0.775301456451416,0.0761721134185791,0.07736483645804228,1738277235715877085
-0.8432295322418213,0.12575548887252808,0.04954018576835261,1738277235747017054
0.02170121669769287,-0.19450032711029053,0.04503374746438112,1738277235778971688
2.496577262878418,-0.042020320892333984,-0.013194195518233377,1738277235807153806
1.0120052099227905,-0.057999372482299805,0.00902654417126741,1738277235836961999
0.8631802201271057,0.19753479957580566,0.06873957946221743,1738277235867080883
1.0411620140075684,0.14312219619750977,0.10464801906286221,1738277235889643525
0.7398435473442078,0.4090923070907593,0.1601996798919037,1738277235917247865
1.0385500192642212,-0.2482324242591858,0.18913371459106249,1738277235947080378
0.8090698719024658,0.19050472974777222,0.18257699630594446,1738277235969720002
-0.1400538682937622,0.16801601648330688,0.2547304277591288,1738277236007347506
0.8730155229568481,0.32337474822998047,0.27527617906008056,1738277236037276785
1.3427371978759766,0.07788890600204468,0.32235569401345016,1738277236067255285
0.15314525365829468,-0.860726535320282,0.30133217235225024,1738277236097940469
-0.49113893508911133,0.27257239818573,0.30364721325434035,1738277236129156394
0.1293753981590271,0.422890305519104,0.32540994647780846,1738277236167396638
0.09546113014221191,1.0787937641143799,0.31932387490621067,1738277236197521122
0.17291545867919922,-0.27125996351242065,0.3050116882525494,1738277236227751763
-0.46469414234161377,0.923016369342804,0.28399613306775867,1738277236259217387
-0.05832326412200928,0.7732621431350708,0.27272324453779717,1738277236290786125
0.37110912799835205,0.5295708179473877,0.31951228096788603,1738277236327586419
-0.4591120481491089,-0.33406388759613037,0.2881928390272783,1738277236357770878
-0.18776869773864746,-0.13989555835723877,0.28565079691239476,1738277236387665858
0.5412322282791138,-0.12070310115814209,0.2824941438263499,1738277236418930339
-0.14586585760116577,-0.20723402500152588,0.28939228466902667,1738277236450982145
0.3993971347808838,0.24332982301712036,0.38136544228320673,1738277236476876194
0.33038920164108276,0.44742029905319214,0.32133019039271793,1738277236507931449
-0.3404847979545593,0.1528506875038147,0.30635937443924205,1738277236537932941
-0.26752960681915283,0.3473805785179138,0.3171192059988827,1738277236567887994
-0.0078238844871521,-0.13558590412139893,0.31820942811549147,1738277236597982244
0.1264461874961853,-0.6407434940338135,0.31787591352084943,1738277236628174825
-0.21856021881103516,0.3587292432785034,0.2659885008217096,1738277236658990309
0.0930405855178833,0.08639085292816162,0.23872006248989014,1738277236691668725
-0.02019965648651123,-0.3625220060348511,0.2971914380879112,1738277236718444964
0.16695737838745117,-0.48814690113067627,0.2711086132846484,1738277236748438706
0.3635079264640808,1.2252285480499268,0.28188127759371684,1738277236778226759
0.3577508330345154,0.8551103472709656,0.2492185219246018,1738277236808334707
-0.47187620401382446,-0.9055636525154114,0.27084692465368143,1738277236838754379
-0.4201604723930359,0.7140236496925354,0.30718393206526917,1738277236868364646
0.8051497340202332,0.3093932271003723,0.3318022037375231,1738277236899100526
-0.306671142578125,-1.7324023246765137,0.29590913252215084,1738277236931325203
0.3948433995246887,-0.09059607982635498,0.3328072798582909,1738277236958576583
-0.4073253273963928,1.8019531965255737,0.30668320617189193,1738277236988480143
-0.09155797958374023,-0.37616199254989624,0.29756471257737127,1738277237018614602
-0.24524074792861938,-0.2772408723831177,0.3273869956458668,1738277237048640306
-0.030756652355194092,1.547813057899475,0.32395697991165917,1738277237078804132
0.8124591708183289,0.011479496955871582,0.27655666133602375,1738277237108842308
-0.45975011587142944,-1.3319987058639526,0.24340397095648156,1738277237139638619
0.6316186785697937,0.14056289196014404,0.27562526973072987,1738277237171250300
-0.18852901458740234,0.6791674494743347,0.3811113135333039,1738277237199139570
0.5189473032951355,-0.5345589518547058,0.32288909866811955,1738277237228897375
-0.8329420685768127,0.01258164644241333,0.28197305672342615,1738277237258977437
0.16654902696609497,0.8900246620178223,0.29146362489238264,1738277237288933311
-0.0820016860961914,0.8326259851455688,0.3142432247145534,1738277237319008228
-0.14323770999908447,-0.5131940245628357,0.3142609241154603,1738277237349024578
-0.2339460849761963,0.3462306261062622,0.2988906255833739,1738277237379039304
0.16211265325546265,0.5771753191947937,0.26413458633218506,1738277237411086265
0.14602351188659668,-0.31035780906677246,0.29923211026470703,1738277237439333861
-0.19410502910614014,-0.5471341013908386,0.2929172442141082,1738277237469260530
-0.10628831386566162,-0.2051672339439392,0.30533803292068495,1738277237499209030
0.25145334005355835,0.8590428233146667,0.3022482303848279,1738277237529189741
0.2530643343925476,-0.5365270376205444,0.2863098218755352,1738277237559311014
-0.6111670732498169,-1.7072442770004272,0.3027242618013941,1738277237589430381
0.5460957884788513,0.9003077149391174,0.31071696723529246,1738277237619490777
-0.05366402864456177,1.363040804862976,0.27239566482609406,1738277237651644298
0.17868107557296753,-0.9201845526695251,0.27762849500801257,1738277237682133639
-0.42079174518585205,-1.7847280502319336,0.3113186612414411,1738277237719649180
0.06515252590179443,-0.39105886220932007,0.2844047448866333,1738277237749540131
-0.6658462882041931,1.6568588018417358,0.30415821265199156,1738277237779569159
0.4466620087623596,0.3255559206008911,0.273597334524657,1738277237811337130
-0.1302698850631714,-0.8491780757904053,0.2796537763384335,1738277237842530883
-0.10599380731582642,0.28877419233322144,0.34161308403478974,1738277237869794149
0.02905559539794922,1.2210299968719482,0.3326197437963174,1738277237899826850
-0.4944359064102173,-1.1384509801864624,0.27509941851404707,1738277237922801555
0.022430419921875,0.5490413308143616,0.33367101468626587,1738277237949959762
-0.21070939302444458,0.8195086121559143,0.2800526969034951,1738277237979898839
-0.8009276986122131,-0.5531365871429443,0.2857883277471826,1738277238009930865
-1.5322593450546265,-0.17341315746307373,0.28834386525859795,1738277238040130250
-0.35639065504074097,0.7396937608718872,0.2598994113173956,1738277238069964946
0.7491881847381592,-0.16563189029693604,0.20992937992553096,1738277238100140674
1.492409348487854,-0.21428126096725464,0.1802220588749564,1738277238131287857
1.5698344707489014,0.4319782853126526,0.22595800483504616,1738277238163799607
0.523822009563446,0.47095876932144165,0.314375597032297,1738277238200776238
0.6008167862892151,-0.2843480110168457,0.2747645246566985,1738277238230969601
-1.5570127964019775,-0.6492004990577698,0.28562382743847003,1738277238260742690
-0.8813951015472412,-0.26703619956970215,0.31336136187561464,1738277238291475818
0.49336153268814087,0.7676846981048584,0.3030538558729566,1738277238323555439
-0.7401517629623413,-0.03719252347946167,0.331839444050301,1738277238350818474
0.9023776054382324,-0.7064352035522461,0.3219551167366824,1738277238379969521
-0.6485975980758667,0.7721984386444092,0.33316452462205814,1738277238410893226
1.2577298879623413,0.8037806749343872,0.331581907090735,1738277238440774055
-0.02979588508605957,-0.17944329977035522,0.2822858181365456,1738277238470800496
0.3055036664009094,-0.44900786876678467,0.2686198933232605,1738277238500800602
-0.45696794986724854,-0.18667900562286377,0.2707116345688386,1738277238531136916
-0.1390371322631836,0.8999801278114319,0.2578786069672622,1738277238563280875
0.24797755479812622,0.579761266708374,0.3205576896762873,1738277238589913996
0.5331617593765259,0.3739622235298157,0.26315813484741934,1738277238620970423
-0.4917260408401489,0.23733550310134888,0.2536582598319587,1738277238643396939
-0.005666375160217285,-0.07464027404785156,0.34537310710794245,1738277238679910183
-0.5294578075408936,1.1512640714645386,0.33121075561509417,1738277238710825537
0.5769816637039185,0.8259391188621521,0.29720413409744134,1738277238739905495
-0.3043771982192993,-0.6094723343849182,0.25347052488952154,1738277238771155721
-0.24660468101501465,-0.8892279267311096,0.2554859394000759,1738277238803803228
-0.19460386037826538,0.4853949546813965,0.37032849400512957,1738277238831110744
0.75411456823349,0.7306269407272339,0.32217173903565044,1738277238861107003
-0.1309719681739807,-0.726256251335144,0.2731585968936513,1738277238891093746
0.45522254705429077,-0.9354850053787231,0.28620007983032786,1738277238921269780
-0.2148573398590088,-0.1373131275177002,0.31522591593485016,1738277238951148752
-0.03757387399673462,0.5410975813865662,0.3066926812765034,1738277238981236406
-0.5193341970443726,0.9153927564620972,0.2903790227049597,1738277239011436180
0.17258071899414062,0.7089117169380188,0.26833168677425195,1738277239043810697
0.09067946672439575,0.7503859996795654,0.3702453850905349,1738277239071431317
0.3981860280036926,-0.2926114797592163,0.3320801190763605,1738277239101530074
-0.1329268217086792,-0.6385983228683472,0.29956123876510665,1738277239131452997
-0.3194669485092163,0.856192409992218,0.26288865385011695,1738277239152540515
-0.3449004292488098,1.1354948282241821,0.30764929625124016,1738277239191515408
0.8333373069763184,1.0354104042053223,0.2868141866957053,1738277239221491572
-0.19064605236053467,-0.19569700956344604,0.23474399743622318,1738277239251538086
0.16632550954818726,-0.6187288165092468,0.23493423235267913,1738277239283442453
0.08557581901550293,0.240775465965271,0.3011385515333008,1738277239314827216
-0.15715163946151733,0.6007907390594482,0.35004405305513314,1738277239341779657
-0.20338302850723267,-0.5504273772239685,0.2787787577573988,1738277239381937999
-0.10857439041137695,0.5251432657241821,0.3140841442074946,1738277239410874644
-0.13422977924346924,0.8369262218475342,0.27296559791441005,1738277239443760329
-0.1147339940071106,-0.2982609272003174,0.27362455894193877,1738277239474803041
-0.2091962695121765,-0.4106939435005188,0.31118195349670513,1738277239501978413
0.1657925844192505,-0.3678494095802307,0.3114756049524946,1738277239531908636
0.0556522011756897,0.04840821027755737,0.3173123334489774,1738277239561931445
0.29118776321411133,0.36865222454071045,0.33311900775206893,1738277239592128238
0.1854448914527893,0.4867473244667053,0.32960026697784606,1738277239622000343
0.3994289040565491,-0.20840239524841309,0.3147216180475658,1738277239652072734
0.14693105220794678,-0.8648247122764587,0.30366109292616555,1738277239683297114
0.26135432720184326,-0.18627923727035522,0.28891820045119554,1738277239715543508
-0.3686160445213318,0.4373233914375305,0.3333234135053957,1738277239742536311
-0.27201759815216064,0.11306595802307129,0.2905428709626764,1738277239772310788
-0.2453080415725708,0.8371209502220154,0.2865153665457987,1738277239802428421
0.07965242862701416,0.8472708463668823,0.2587066799454438,1738277239832476138
-0.4151057004928589,0.7304980754852295,0.25027133525225964,1738277239862348994
-0.05627936124801636,0.22720015048980713,0.2683415075682593,1738277239892392471
0.13122868537902832,-0.10373347997665405,0.30911997114816475,1738277239923580461
-0.1714656949043274,0.06284552812576294,0.2912123265043968,1738277239955064829
-0.07776623964309692,0.12923824787139893,0.3271235180658362,1738277239982600432
-0.254244327545166,0.46751099824905396,0.33844895751992843,1738277240012566503
0.19307881593704224,0.7765030264854431,0.308930918554094,1738277240042610772
-0.23424971103668213,1.160611629486084,0.2728029915680439,1738277240072655059
-0.14007705450057983,-0.10837453603744507,0.26817800469391084,1738277240092720242
0.01342630386352539,-0.4745393395423889,0.2873630688081819,1738277240132775361
0.3608766198158264,-0.19508838653564453,0.26682431726548594,1738277240163815318
-0.2147548794746399,0.27746063470840454,0.25156500527349185,1738277240195530219
0.20050859451293945,-0.5324845314025879,0.3117945392605264,1738277240222965530
0.11029523611068726,-0.23359167575836182,0.32484341512520776,1738277240252964808
0.060007333755493164,0.8972295522689819,0.32922709498684977,1738277240283027964
0.4745170474052429,0.21659058332443237,0.3224880470245902,1738277240313191097
-0.5980427861213684,-0.5014577507972717,0.3188549270415332,1738277240343102423
0.31589800119400024,-0.0018678903579711914,0.32616328297653735,1738277240373322951
-0.30678290128707886,-0.31417369842529297,0.28870275061172,1738277240403811397
0.20606523752212524,-0.08060216903686523,0.25433456758567774,1738277240435453620
-0.03957313299179077,0.2720574736595154,0.3026400333741278,1738277240466066498
-0.2956143021583557,-0.4697920083999634,0.2831714914213408,1738277240503229158
0.447934091091156,-0.08742237091064453,0.2479544513913889,1738277240533258735
-0.3214642405509949,0.0913170576095581,0.2906974256563182,1738277240563444237
0.09067153930664062,0.26991498470306396,0.29780982934662986,1738277240595698676
-0.1157459020614624,0.5664804577827454,0.311005017818692,1738277240626063198
0.1827356219291687,0.6435222625732422,0.3295348254316275,1738277240653599564
-0.2455676794052124,0.40357309579849243,0.3236846301398995,1738277240683474948
-0.23579245805740356,0.36086976528167725,0.31379487976350223,1738277240713471913
-0.244256854057312,0.7859334349632263,0.31059040524474685,1738277240743729857
-0.20644378662109375,-0.272117018699646,0.2884923668344017,1738277240773571158
0.4205280542373657,-0.5572478771209717,0.28895910797704466,1738277240803817383
0.18017762899398804,0.19494056701660156,0.2888014394354659,1738277240835835010
0.3013128638267517,0.14598429203033447,0.28925733358881195,1738277240865915461
0.11567890644073486,-0.4382660984992981,0.32464335932376087,1738277240903882293
-0.1642550826072693,0.3111267685890198,0.3248690354482381,1738277240934062936
0.07685768604278564,0.0492059588432312,0.31936207102862557,1738277240962859336
-1.2066929340362549,0.2899050712585449,0.27133932943827255,1738277240995273128
-0.2630698084831238,0.6455937623977661,0.27578415913624454,1738277241027294668
-1.5233399868011475,0.2600163221359253,0.28022992690971665,1738277241064032274
-0.20058947801589966,0.2794456481933594,0.20950572704470485,1738277241094022146
-1.1343369483947754,0.20209968090057373,0.1892087962849377,1738277241124210499
-0.6933870315551758,-0.41682666540145874,0.15820623932831807,1738277241155412672
-0.25136202573776245,-0.030947566032409668,0.12879926902933503,1738277241187734221
2.6237406730651855,0.2675396800041199,0.17243437134730555,1738277241214285723
0.6719568967819214,-0.11552882194519043,0.17278083251023038,1738277241244614718
1.4783661365509033,1.0086817741394043,0.21776977212989299,1738277241274386376
1.2870339155197144,0.8951220512390137,0.23901804682622177,1738277241304408283
1.2037829160690308,-0.787011444568634,0.27354355454751006,1738277241334422628
0.5186479091644287,-0.4091939926147461,0.24428283954670896,1738277241364578255
0.14768654108047485,0.10182040929794312,0.19719974439092378,1738277241395621749
0.3582141399383545,-0.07796221971511841,0.20604078262661624,1738277241426956675
-2.037815809249878,0.5691564679145813,0.2918058411364327,1738277241454613590
0.05147278308868408,0.18768209218978882,0.3468379255206519,1738277241483655250
-0.03935647010803223,-0.6215537190437317,0.3061186424349941,1738277241514733411
-0.858809232711792,-0.26414501667022705,0.3046374706103751,1738277241544764084
1.4859001636505127,0.2097110152244568,0.28839530222735,1738277241573889912
-0.07432979345321655,-0.11476373672485352,0.2433908340238657,1738277241604736131
0.7116166353225708,-0.7224079370498657,0.285240961379962,1738277241635599265
-0.1672692894935608,0.17060738801956177,0.30713076318840316,1738277241667222808
-0.07981407642364502,0.02619802951812744,0.28837967666184594,1738277241694970949
-0.17653965950012207,0.20330089330673218,0.2489588562256714,1738277241724975520
-0.1521989107131958,0.07272481918334961,0.23877577526935376,1738277241747675359
0.4031161665916443,-0.19373375177383423,0.33036698434423717,1738277241775024502
0.32131892442703247,0.14482903480529785,0.32450414230837316,1738277241805018558
0.43183833360671997,0.45251554250717163,0.32461879974013325,1738277241835045175
-0.22473132610321045,-0.2858767509460449,0.3289549048589711,1738277241865051638
0.18236148357391357,-0.3871886134147644,0.29942843990962653,1738277241895777801
-0.2159266471862793,-0.06984418630599976,0.2752142017778067,1738277241925838449
-0.20645421743392944,-0.7608147263526917,0.25494842999048745,1738277241955975950
-0.22674775123596191,-0.06123572587966919,0.25864429159320873,1738277241987269324
-0.06347113847732544,0.13940882682800293,0.2631524122941543,1738277242017982210
-0.008439600467681885,-0.1481107473373413,0.2891219027261322,1738277242045934192
-0.3242573142051697,0.1258305311203003,0.29220285570817245,1738277242075935987
0.059742093086242676,0.6214891672134399,0.2801457133321864,1738277242097918425
-0.06047004461288452,-0.6115118265151978,0.3192464711468519,1738277242136140571
0.02509164810180664,-0.4645381569862366,0.32380181245364204,1738277242166129479
0.3026702404022217,0.37858402729034424,0.3403188989401114,1738277242195911001
-0.07353407144546509,0.6346110105514526,0.2809146955280336,1738277242227335158
0.5725225210189819,0.11528116464614868,0.25614590055489705,1738277242258736251
0.06064707040786743,-0.508375883102417,0.28997587547271264,1738277242286073379
0.13561266660690308,-0.5110905766487122,0.23267259302328475,1738277242315978113
-0.13373470306396484,0.503593385219574,0.19828387647037535,1738277242338408690
-0.1313079595565796,-0.37273508310317993,0.27113657472150215,1738277242366086788
-0.12043678760528564,0.43010079860687256,0.28847002673578426,1738277242406212753
0.08368504047393799,0.5515953898429871,0.2855475390189175,1738277242436161974
-0.13018649816513062,-0.16285008192062378,0.29009278690774076,1738277242467339705
0.005537271499633789,-0.10184627771377563,0.27637415581792685,1738277242499510059
-0.35530948638916016,0.4655783772468567,0.30615965866994477,1738277242526350811
-0.3767507076263428,0.045546889305114746,0.2547422961462502,1738277242556190786
0.2517961263656616,0.12538892030715942,0.2652968529302106,1738277242586208957
-0.1594982147216797,0.7414904832839966,0.23561593337647044,1738277242616495610
-0.016288697719573975,0.06507331132888794,0.2086557426929389,1738277242646201811
-0.3978460431098938,-0.08811146020889282,0.237181541294056,1738277242676338115
-0.031775057315826416,0.19622981548309326,0.23333773043131847,1738277242707774056
-0.2763170599937439,-0.17669284343719482,0.21777889783102494,1738277242739517969
-0.4052160978317261,-0.19627493619918823,0.2588107680095836,1738277242766366673
0.3192000389099121,0.484514057636261,0.2602081785483054,1738277242796477422
-0.5984953045845032,0.5009799599647522,0.2503963568397739,1738277242826347380
0.19522011280059814,-0.04488527774810791,0.2333494522237427,1738277242856402591
-0.21839898824691772,-0.40305376052856445,0.280403585007448,1738277242886438755
0.03522735834121704,0.17865461111068726,0.2659595548806616,1738277242916511483
0.08552759885787964,0.10844647884368896,0.24531961510672895,1738277242947277003
0.5097914934158325,-0.7389695644378662,0.23688505567871107,1738277242980086019
-0.07353121042251587,-0.4004085659980774,0.245644655915669,1738277243005673072
-0.23378407955169678,0.45169907808303833,0.21276926270247828,1738277243035639969
-0.1310381293296814,0.18370842933654785,0.2218472955572904,1738277243066667914
-0.29815149307250977,-0.14704442024230957,0.24491534699590817,1738277243096705153
0.06973224878311157,0.8738035559654236,0.22727459137527026,1738277243126795800
0.20846855640411377,-0.32799506187438965,0.22425534920206736,1738277243156822618
0.4129577875137329,-0.43924325704574585,0.22076519152275356,1738277243187520627
0.25939178466796875,0.8005837202072144,0.18266623936939205,1738277243219730118
0.22791701555252075,-0.011609494686126709,0.22154118714701312,1738277243247390967
-0.0583728551864624,0.21662336587905884,0.21020291885844408,1738277243276977148
0.22753530740737915,0.5886309742927551,0.20219028316462456,1738277243307040732
0.2723380923271179,-0.1076468825340271,0.2049779764223144,1738277243337090948
-0.3648337125778198,-0.07662451267242432,0.20337937381752227,1738277243367104955
0.5982657074928284,0.37212246656417847,0.2109117820348003,1738277243397226817
-0.3329008221626282,0.3466607332229614,0.2099436562168996,1738277243427322445
0.13832765817642212,0.2543331980705261,0.2150463355056131,1738277243459324596
-0.12874650955200195,0.5371441841125488,0.2438055402144936,1738277243489833717
0.14944392442703247,-0.5779029726982117,0.27180157208457945,1738277243527339755
0.006572425365447998,0.0018796920776367188,0.2539369457494527,1738277243557435338
0.49291539192199707,0.05572408437728882,0.2221553996195835,1738277243587473534
-0.6699303984642029,-0.1698499321937561,0.2042469421445405,1738277243619343840
1.2016350030899048,-0.20666706562042236,0.20157472832909362,1738277243650009967
-0.12883198261260986,-0.2634238600730896,0.19693661210636018,1738277243677547333
-0.04554283618927002,-0.09490513801574707,0.17898007847279315,1738277243707654367
0.4601471424102783,0.2923803925514221,0.19094675947712528,1738277243728867363
-0.0451664924621582,-0.032439589500427246,0.21240829293682273,1738277243767647296
-0.15128594636917114,0.4180836081504822,0.21913315057806707,1738277243797706100
-0.03232818841934204,0.2956518530845642,0.2267169053402115,1738277243827753697
0.002732396125793457,0.004023194313049316,0.20519700411777247,1738277243860265145
0.07993060350418091,0.7198266386985779,0.21921794922261095,1738277243890672846
0.36696720123291016,-0.08686906099319458,0.23758295993874587,1738277243917928533
0.08088713884353638,-0.6489360928535461,0.1985449962692439,1738277243948009202
-0.06714224815368652,-0.10101443529129028,0.18850700317800123,1738277243978137697
-0.181418776512146,-0.1568576693534851,0.1938097669945067,1738277244008179234
-0.1420832872390747,0.1047702431678772,0.22146880812211256,1738277244038263819
0.12218773365020752,-0.0028464198112487793,0.24001316385580748,1738277244068128621
-0.33356380462646484,-0.11705273389816284,0.22073947066897875,1738277244099431041
-0.13415122032165527,-0.332646906375885,0.22862987584650168,1738277244132120807
0.3560844659805298,-0.2923264503479004,0.2913217989016607,1738277244158294451
-0.253654420375824,0.20502358675003052,0.2046552980285819,1738277244188317964
0.49154388904571533,0.04040229320526123,0.20066070651978957,1738277244218473666
-0.06591761112213135,-0.12619423866271973,0.19186333970380381,1738277244248265327
-0.11723560094833374,0.36119651794433594,0.15621837870090644,1738277244278402942
0.08171975612640381,-0.15415328741073608,0.17914449024163093,1738277244308360006
0.31572818756103516,-0.19239354133605957,0.20176592463878065,1738277244339783703
0.041837453842163086,0.5535793900489807,0.18664298393677256,1738277244371773623
0.35387521982192993,-0.20592045783996582,0.21675456343858612,1738277244407853387
-0.3727545142173767,-0.7439478039741516,0.20104720921582306,1738277244438614046
-0.11999112367630005,-0.6637139320373535,0.17750296405195118,1738277244468902417
0.06957376003265381,0.44226503372192383,0.19364336324846992,1738277244497851519
0.18502330780029297,0.2489601969718933,0.1684513981104048,1738277244531673908
-0.11997276544570923,0.13065147399902344,0.23969438134146567,1738277244556868544
-0.05922818183898926,-0.3170222043991089,0.1986695120930899,1738277244579384498
0.27212458848953247,-0.16801756620407104,0.22815697266419557,1738277244611489192
-0.19216054677963257,0.1863842010498047,0.2566602900737931,1738277244638886838
0.30864906311035156,-0.21083033084869385,0.2377969191677058,1738277244667881412
0.01965886354446411,0.04450416564941406,0.23342962128111636,1738277244699027075
0.3455321192741394,0.6022874712944031,0.21858569966449723,1738277244729010811
-0.27536725997924805,-0.2670256495475769,0.1777761662107124,1738277244759051785
0.5312796235084534,-0.4311279058456421,0.18614990577820353,1738277244789045130
0.0896683931350708,0.2967652678489685,0.18391769855965773,1738277244820708210
-0.19169926643371582,0.6833003759384155,0.15296783596177357,1738277244851565789
0.46288686990737915,0.6095596551895142,0.19162195636327364,1738277244879228623
-0.03682440519332886,0.5051887631416321,0.19083760913054815,1738277244909218425
-0.21856576204299927,0.43226712942123413,0.16750679047252645,1738277244939235892
-0.05777692794799805,-0.25354504585266113,0.18048810696267317,1738277244969447807
-0.029076218605041504,-0.10894381999969482,0.23541744272725917,1738277244999373684
-0.3659970760345459,0.3593156933784485,0.22991272917642736,1738277245029362320
0.4555058479309082,0.33333343267440796,0.2231107957421125,1738277245059685776
0.3101130723953247,0.012255489826202393,0.1919103573725295,1738277245091944401
-0.06397277116775513,0.3845391273498535,0.1790286204490904,1738277245119730460
-0.054025471210479736,-0.26103895902633667,0.17294322219151298,1738277245149546872
0.24010998010635376,-0.35915493965148926,0.19866089637566137,1738277245179537098
-0.40946877002716064,0.1800805926322937,0.16783057943419505,1738277245209637070
-0.12811636924743652,0.2347542643547058,0.17993427359780667,1738277245239689998
0.3313235640525818,-0.28942906856536865,0.22146000624429243,1738277245269756844
-0.30639898777008057,-0.046493351459503174,0.19764113544086423,1738277245299972299
0.4248514175415039,0.7515844702720642,0.1726786950746185,1738277245332049555
-0.10807061195373535,0.9131302237510681,0.19643246616852586,1738277245362191733
-0.0652586817741394,-0.04568469524383545,0.17823725283295114,1738277245400095359
-0.03700578212738037,-0.8049419522285461,0.15225750084863066,1738277245429893531
0.15509700775146484,-0.14298737049102783,0.175129203499961,1738277245459997685
-0.39051252603530884,0.09615755081176758,0.14629423231741126,1738277245491440432
0.16971665620803833,0.0030354857444763184,0.13232193340349707,1738277245522609264
-0.3489457368850708,-0.3293483853340149,0.18196555868444275,1738277245560343182
0.008452057838439941,0.5715925097465515,0.1764361107513737,1738277245590132453
-0.1224982738494873,0.3491070866584778,0.1662462966194369,1738277245620182087
-0.07841205596923828,-0.06068539619445801,0.18656702279098686,1738277245652196276
0.21819835901260376,0.7964649200439453,0.20616812635215817,1738277245683531728
-0.151250422000885,-0.06823575496673584,0.20336545342855974,1738277245711064649
-0.002089083194732666,-0.4461638331413269,0.19500784281123895,1738277245741245644
0.030412375926971436,0.5128178000450134,0.16381410737334537,1738277245771277713
-0.3984745144844055,0.2987038493156433,0.1458546133790498,1738277245801081583
-0.06931865215301514,-0.07302016019821167,0.16806036774627967,1738277245831244526
-0.08786004781723022,-0.30415666103363037,0.18278269406908662,1738277245861077564
-0.7730233073234558,-0.45985960960388184,0.16243102191635003,1738277245891791590
0.8231663703918457,-0.3513420820236206,0.17351728388423068,1738277245923994405
-0.22874993085861206,-0.22613805532455444,0.20594388543168385,1738277245951153577
0.4195678234100342,0.08055835962295532,0.15454133347324145,1738277245981132501
0.19853639602661133,-0.01675814390182495,0.18071538267873835,1738277246011195176
0.8618238568305969,0.41631007194519043,0.1636768479652885,1738277246041256925
-0.38305193185806274,0.20104867219924927,0.13490609007905682,1738277246071448957
0.21859091520309448,0.15179026126861572,0.1647624699253994,1738277246101378246
-0.04378277063369751,-0.09471720457077026,0.18442642243326285,1738277246131437779
-0.4388946294784546,-0.11301320791244507,0.15117425856510583,1738277246164157718
0.2576465606689453,0.32648760080337524,0.17607274999527364,1738277246191367704
-0.3206547498703003,-0.5456200838088989,0.17074883111999764,1738277246221276241
0.4214709401130676,-0.6425432562828064,0.1664236598446609,1738277246251331260
-0.21428072452545166,0.1978875994682312,0.19941626534461268,1738277246281287516
0.5328707098960876,0.11937534809112549,0.19850734743101303,1738277246311595037
-0.1941024661064148,0.12304550409317017,0.1656413581724357,1738277246341286877
0.17477566003799438,-0.4206933379173279,0.17947435211344567,1738277246371772435
-0.1306527853012085,-0.7264861464500427,0.16395190940965035,1738277246404247701
